N|108|To amend the National Telecommunications and Information Adminstration Organization Act to facilitate the reallocation of spectrum from governmental to commercial users; to improve, enhance, and promote the Nation's homeland security, public safety, and citizen activated emergency response capabilities through the use of enhanced 911 services, to further upgrade Public Safety Answering Point capabilities and related functions in receiving E-911 calls, and to support in the construction and operation of a ubiquitous and reliable citizen activated system; and to provide that funds received as universal service contributions under section 254 of the Communications Act of 1934 and the universal service support programs established pursuant thereto are not subject to certain provisions of title 31, United States Code, commonly known as the Antideficiency Act, for a period of time.
N|108|To amend the Internal Revenue Code of 1986 to modify the taxation of arrow components.
N|108|Commercial Space Launch Amendments Act of 2004
N|108|To authorize salary adjustments for Justices and judges of the United States for fiscal year 2005.
N|108|For the relief of Tanya Andrea Goudeau.
N|108|To amend section 340E of the Public Health Service Act (relating to children's hospitals) to modify provisions regarding the determination of the amount of payments for indirect expenses associated with operating approved graduate medical residency training programs.
N|108|District of Columbia Retirement Protection Improvement Act of 2004
N|108|To provide for the development of a national plan for the control and management of Sudden Oak Death, a tree disease caused by the fungus-like pathogen Phytophthora ramorum, and for other purposes.
N|108|Intelligence Authorization Act for Fiscal Year 2005
N|108|American Bald Eagle Recovery and National Emblem Commemorative Coin Act
N|108|To authorize the Secretary of Commerce to make available to the University of Miami property under the administrative jurisdiction of the National Oceanic and Atmospheric Administration on Virginia Key, Florida, for use by the University for a Marine Life Science Center.
N|108|Microenterprise Results and Accountability Act of 2004
N|108|To authorize the exchange of certain land in Everglades National Park.
N|108|Intellectual Property Protection and Courts Amendments Act of 2004
N|108|A bill to limit the transfer of certain Commodity Credit Coporation funds between conservation programs for technical assistance for the programs.
N|108|Comprehensive Peace in Sudan Act of 2004
N|108|Federal Employee Dental and Vision Benefits Enhancement Act of 2004
N|108|Kilauea Point National Wildlife Refuge Expansion Act of 2004
N|108|Castillo de San Marcos National Monument Boundary Adjustment Act of 2004
N|108|Video Voyeurism Prevention Act of 2004
N|108|To designate the facility of the United States Postal Service located at 4985 Moorhead Avenue in Boulder, Colorado, as the "Donald G. Brotzman Post Office Building".
N|108|To treat certain arrangements maintained by the YMCA Retirement Fund as church plans for the purposes of certain provisions of the Internal Revenue Code of 1986, and for other purposes.
N|108|To designate the facility of the United States Postal Service located at 5505 Stevens Way in San Diego, California, as the "Earl B. Gilliam/Imperial Avenue Post Office Building".
N|108|American History and Civics Education Act of 2004
N|108|To designate the facility of the United States Postal Service located at 25 McHenry Street in Rosine, Kentucky, as the "Bill Monroe Post Office".
N|108|To designate the facility of the United States Postal Service located at 560 Bay Isles Road in Longboat Key, Florida, as the "Lieutenant General James V. Edmundson Post Office Building".
N|108|To designate the facility of the United States Postal Service located at 103 East Kleberg in Kingsville, Texas, as the "Irma Rangel Post Office Building".
N|108|To designate the facility of the United States Postal Service located at 140 Sacramento Street in Rio Vista, California, as the "Adam G. Kinser Post Office Building".
N|108|To redesignate the facility of the United States Postal Service located at 747 Broadway in Albany, New York, as the "United States Postal Service Henry Johnson Annex".
N|108|To confirm the authority of the Secretary of Agriculture to collect approved State commodity assessments on behalf of the State from the proceeds of marketing assistance loans.
N|108|Thrift Savings Plan Open Elections Act of 2004
N|108|To redesignate the facility of the United States Postal Service located at 4025 Feather Lakes Way in Kingwood, Texas, as the "Congressman Jack Fields Post Office".
N|108|To designate the Federal building and United States courthouse located at 615 East Houston Street in San Antonio, Texas, as the "Hipolito F. Garcia Federal Building and United States Courthouse".
N|108|To designate the Federal building located at Fifth and Richardson Avenues in Roswell, New Mexico, as the "Joe Skeen Federal Building".
N|108|Specialty Crops Competitiveness Act of 2004
N|108|Benjamin Franklin Commemorative Coin Act
N|108|To designate the Federal building located at 324 Twenty-Fifth Street in Ogden, Utah, as the "James V. Hansen Federal Building".
N|108|To designate the facility of the United States Geological Survey and the United States Bureau of Reclamation located at 230 Collins Road, Boise, Idaho, as the "F.H. Newell Building".
N|108|To designate the United States courthouse located at 125 Bull Street in Savannah, Georgia, as the "Tomochichi United States Courthouse".
N|108|To provide for the conveyance of Federal lands, improvements, equipment, and resource materials at the Oxford Research Station in Granville County, North Carolina, to the State of North Carolina.

N|108|Recognizing the 60th anniversary of the Battle of Peleliu and the end of Imperial Japanese control of Palau during World War II and urging the Secretary of the Interior to work to protect the historic sites of the Peleliu Battlefield National Historic Landmark and to establish commemorative programs honoring the Americans who fought there.
N|108|A bill to amend the District of Columbia College Access Act of 1999 to reauthorize for 2 additional years the public school and private school tuition assistance programs established under the Act.
N|108|Intelligence Reform and Terrorism Prevention Act of 2004
N|108|Arizona Water Settlements Act
N|108|District of Columbia Mental Health Civil Commitment Modernization Act of 2004
N|108|Harmful Algal Bloom and Hypoxia Amendments Act of 2004
N|108|A bill to extend the authority of the United States District Court for the Southern District of Iowa to hold court in Rock Island, Illinois.
N|108|To amend and extend the Irish Peace Process Cultural and Training Program Act of 1998.
N|108|Veterans Benefits Improvement Act of 2004
N|108|Cooperative Research and Technology Enhancement (CREATE) Act of 2004
N|108|Alaska Land Transfer Acceleration Act of 2003
N|108|Providing for the sine die adjournment of the second session of the One Hundred Eighth Congress.
N|108|Consolidated Appropriations Act, 2005
N|108|A bill to amend title XIX of the Social Security Act to extend medicare cost-sharing for the medicare part B premium for qualifying individuals through September 2005.
N|108|Eisenhower Exchange Fellowship Program Trust Fund Enhancement Act of 2004
N|108|Anticounterfeiting Act of 2004
N|108|Sudden Oak Death Syndrome Control Act of 2004
N|108|A resolution expressing the sense of the Senate regarding the November 21, 2004, Presidential runoff election in Ukraine.
N|108|Junk Fax Prevention Act of 2004
N|108|Commending the Aero Squad After School Program at Tomorrow's Aeronautical Museum in Compton, California, as well as other youth aviation programs that expose young minorities to the field of civil aviation.
N|108|Recognizing the importance of early diagnosis, proper treatment, and enhanced public awareness of Tourette Syndrome and supporting the goals and ideals of National Tourette Syndrome Awareness Month.
N|108|A concurrent resolution recognizing the essential role that the Atomic Energy Act of 1954 has played in development of peaceful uses of atomic energy.
N|108|Coast Guard and Maritime Transportation Technical Corrections Act of 2004
N|108|A resolution commemorating the 40th Anniversary of the Wilderness Act.
N|108|A bill for the relief of Susan Overton Huey.
N|108|A resolution relative to the death of J. Stanley Kimmitt, Former Secretary of the Senate.
N|108|Oil Spill Prevention and Liability Act of 2004
N|108|A bill for the relief of Ricardo F. Pedrotti.
N|108|A resolution expressing the sense of the Senate regarding the November 21, 2004, Presidential runoff election in Ukraine.
N|108|Indian Health Care Improvement Act Amendments of 2004
N|108|John Breaux Elder Justice Act
N|108|A concurrent resolution condemning the repression of the Iranian Baha'i community and calling for the emancipation of Iranian Baha'is.
N|108|An act to authorize the Secretary of the Interior to provide supplemental funding and other services that are necessary to assist certain local school districts in the State of California in providing educational services for students attending schools located within Yosemite National Park, to authorize the Secretary of the Interior to adjust the boundaries of the Golden Gate National Recreation Area, and for other purposes.
N|108|To direct the Secretary of the Interior to convey certain land to the Edward H. McDaniel American Legion Post No. 22 in Pahrump, Nevada, for the construction of a post building and memorial park for use by the American Legion, other veterans' groups, and the local community, and for other purposes.
N|108|Appointing a committee to inform the President that the House is ready to adjourn.
N|108|Providing for the printing of a revised edition of the Rules and Manual of the House of Representatives for the One Hundred Ninth Congress.
N|108|United States Court of Federal Claims Special Trial Judges Act of 2004
N|108|Waiving points of order against the conference report to accompany the bill (S. 2845) to reform the intelligence community and the intelligence and intelligence-related activities of the United States Government, and for other purposes.
N|108|ICARE Act
N|108|A bill to implement the recommendations of the Federal Communications Commission report to the Congress regarding low power FM service.
N|108|Satellite Home Viewer Extension and Rural Consumer Access to Digital Television Act of 2004
N|108|Spectrum Availability for Emergency-Response and Law-Enforcement To Improve Vital Emergency Services Act
N|108|VOIP Regulatory Freedom Act of 2004
N|108|Wireless 411 Privacy Act
N|108|SPY BLOCK Act
N|108|Rural Universal Service Equity Act of 2003
N|108|Federal Trade Commission Consumer Advocacy Act
N|108|Safe and Effective Drug Act
N|108|Long Term Care Quality Improvement Act of 2004
N|108|Medicare Nursing Facility Pay-for-Performance Act of 2004
N|108|Waiving a requirement of clause 6(a) of rule XIII with respect to consideration of certain resolutions reported from the Committee on Rules.
N|108|Retirement Security for Life Act of 2004
N|108|A concurrent resolution expressing the sense of the Congress that the Department of Defense should continue to exercise its statutory authority to support the activities of the Boy Scouts of America, in particular the periodic national and world Boy Scout Jamborees.
N|108|A resolution to honor and thank Robert Ray Howe.
N|108|A resolution expressing the sense of the Senate regarding the detention of Tibetan political prisoners by the Government of the People's Republic of China.
N|108|For the relief of Mrs. Florence Narusewicz of Erie, Pennsylvania.
N|108|Smarter Funding for all of America's Homeland Security Act of 2004
N|108|Jobs Investment Act of 2004
N|108|Supporting the establishment and full funding of a staff exchange program between the House of Representatives and the Parliament of Ukraine, the Verkhovna Rada, as soon as possible.
N|108|Expressing the sense of the House of Representatives that the terms of the Commissioners of the United States Commission on Civil Rights are staggered, beginning and ending upon the expiration date of the vacant position, and that Commissioners appointed to fill unexpired terms should serve only until the expiration date of the term for which they were appointed to finish, but may be eligible to be appointed to a new, subsequent term.
N|108|Oil Spill Prevention and Liability Act of 2004
N|108|Amending the Rules of the House of Representatives respecting the availability of legislation on the Internet.
N|108|Restoring Democracy to the U.S. Congress Act of 2004
N|108|To provide for the establishment of a Center for Scientific and Technical Assessment.
N|108|Safe Highways and Infrastructure Preservation Act
N|108|Directing the Clerk of the House of Representatives to make corrections in the enrollment of H.R. 4818.
N|108|Expressing the sense of the House of Representatives that due to the allegations of fraud, mismanagement, and abuse within the United Nations oil-for-food program, Kofi Annan should resign from the position of Secretary General of the United Nations to help restore confidence that the investigations into those allegations are being fully and independently accomplished.
N|108|To amend the Federal Charter of the Boy Scouts of America in title 36, United States Code, to ratify the authority of the Secretary of Defense and military installations and units of the Armed Forces to officially sponsor units of the Boy Scouts of America serving dependents of members of the Armed Forces and to make facilities of the Department of Defense available for Boy Scout meetings and activities, such as national and world Boy Scout Jamborees.
N|108|To amend a provision relating to privacy officers in the Consolidated Appropriations Act, 2005.
N|108|To repeal a provision relating to privacy officers in the Consolidated Appropriations Act, 2005.
N|108|Calling for the adoption of a Sensible, Multilateral American Response to Terrorism ("SMART") Security Platform for the 21st Century.
N|108|Regarding the potential incapacity of Members of the House of Representatives.
Y|108|To extend eligibility for refugee status of unmarried sons and daughters of certain Vietnamese refugees.
N|108|Idaho Panhandle National Forest Improvement Act of 2004
N|108|A bill to amend the Livestock Mandatory Price Reporting Act of 1999 to modify the termination date for mandatory price reporting.
N|108|To reaffirm the inherent sovereign rights of the Osage Tribe to determine its membership and form of government.
N|108|A bill to designate the facility of the United States Postal Service located at 1475 Western Avenue, Suite 45, in Albany, New York, as the "Lieutenant John F. Finn Post Office".
N|108|A bill to designate the facility of the United States Postal Service located at 1050 North Hills Boulevard in Reno, Nevada, as the "Guardians of Freedom Memorial Post Office Building" and to authorize the installation of a plaque at such site, and for other purposes.
N|108|Department of Veterans Affairs Health Care Personnel Enhancement Act of 2004
N|108|A bill to improve access to physicians in medically underserved areas.
N|108|A bill to designate the facility of the United States Postal Service located at 3150 Great Northern Avenue in Missoula, Montana, as the "Mike Mansfield Post Office".
N|108|A bill for the relief of Rocco A. Trecosta of Fort Lauderdale, Florida.
N|108|A bill to authorize additional appropriations for the Reclamation Safety of Dams Act of 1978.
N|108|Petrified Forest National Park Expansion Act of 2004
N|108|Internet Tax Nondiscrimination Act
N|108|Individuals with Disabilities Education Improvement Act of 2004
N|108|Kate Mullany National Historic Site Act
N|108|Making further continuing appropriations for the fiscal year 2005, and for other purposes.
N|108|Three Affiliated Tribes Health Facility Compensation Act
N|108|Appointing the day for convening of the first session of the One Hundred Ninth Congress.
N|108|Recognizing the 60th anniversary of the Battle of the Bulge during World War II.
N|108|Miscellaneous Trade and Technical Corrections Act of 2004
N|108|Small Business and Farm Energy Emergency Relief Act of 2004
N|108|A concurrent resolution recognizing the importance of early diagnosis, proper treatment, and enhanced public awareness of Tourette Syndrome and supporting the goals and ideals of National Tourette Syndrome Awareness Month.
N|108|Controlled Substances Export Reform Act of 2004
N|108|A bill to amend the Controlled Substances Act to life the patient limitation on prescribing drug addiction treatments by medical practitioners in group practices, and for other purposes.
N|108|CHEER Act
N|108|State High Risk Pool Funding Extension Act of 2004
N|108|Keeping Seniors Safe From Falls Act of 2004
N|108|Universal Service Antideficiency Suspension Act
N|108|Medicare Ambulance Payment Reform and Rural Equity Act of 2004
N|108|Emergency Flu Response Act of 2004
N|108|Energy Independence Act of 2004
N|108|Oil Price Safeguard Act
N|108|Fair Vaccine Price Act of 2004
N|108|Medicare PPO Fairness Act of 2004
N|108|Volunteer First Responder Fairness Act of 2004
N|108|Wauconda Technical and Environmental Remediation Act of 2004
N|108|Faircare Act
N|108|To correct maps depicting Unit T-10 of the John H. Chafee Coastal Barrier Resources System.
N|108|Spokane Tribe of Indians of the Spokane Reservation Grand Coulee Dam Equitable Compensation Settlement Act
N|108|To extend the liability indemnification regime for the commercial space transportation industry.
N|108|Research Review Act of 2004
N|108|Norman Y. Mineta Research and Special Programs Reorganization Act
N|108|To amend the Tijuana River Valley Estuary and Beach Sewage Cleanup Act of 2000 to extend the authorization of appropriations, and for other purposes.
N|108|Lincoln County Conservation, Recreation, and Development Act of 2004
N|108|Department of Energy High-End Computing Revitalization Act of 2004
N|108|Veterans Health Programs Improvement Act of 2004
N|108|Highlands Conservation Act
N|108|California Missions Preservation Act
N|108|Copyright Royalty and Distribution Reform Act of 2004
N|108|To amend the Reclamation Projects Authorization and Adjustment Act of 1992 to increase the Federal share of the costs of the San Gabriel Basin demonstration project.
N|108|To authorize an exchange of land at Fort Frederica National Monument, and for other purposes.
N|108|To authorize the Secretary of the Interior to enter into new and renewal contracts with the City of Aurora, Colorado, or an enterprise of the City, for the use of excess capacity water in the Fryingpan-Arkansas Project.
N|108|Oglala Sioux Tribe Angostura Irrigation Project Modernization and Development Act
N|108|To authorize the establishment of a Centennial Challenge Prize Program at the National Aeronautics and Space Administration.
N|108|Act Commemorating the LITE
N|108|To authorize the Secretary of the Interior to enter into contracts for the use of excess storage and conveyance capacity of the Fryingpan-Arkansas Project, Colorado, and for other purposes.
N|108|Tribal Parity Act
N|108|Providing for a conditional adjournment of the House of Representatives and a conditional recess or adjournment of the Senate.
N|108|HIPAA Recreational Injury Technical Correction Act
N|108|A joint resolution to make a correction in the Conference Report to accompany H.R. 4818.
N|108|Microenterprise Results and Accountability Act of 2004
N|108|Family Entertainment and Copyright Act of 2004
N|108|Commodity Assessment, Protection, and Reform Act
N|108|A bill to establish an intergovernmental grant program to identify and develop homeland security information, equipment, capabilities, technologies, and services to further the homeland security needs of the United States and to address the homeland security needs of  Federal, State, and local governments.
N|108|Marine Debris Research Prevention and Reduction Act
N|108|For the relief of Rosario Amato and Salvatore Amato.
Y|108|To support the Boy Scouts of America and the Girl Scouts of the United States of America.
N|108|Federal Lands Recreation Enhancement Act
N|108|Minority Serving Institution Digital and Wireless Technology Opportunity Act of 2003
N|108|Indian Health Care Improvement Act Amendments of 2004
N|108|Deficit Control Act of 2004
N|108|Family Budget Protection Act of 2004
N|108|Surface Transportation Research and Development Act of 2004
N|108|Family Budget Protection Act of 2003
N|108|International Consumer Protection Act of 2004
N|108|Social Security Number Privacy and Identity Theft Prevention Act of 2004
N|108|Budget Fraud Elimination Act of 2003
N|108|Delaware Water Gap National Recreation Area Natural Gas Pipeline Enlargement Act
N|108|To require the Secretary of the Interior to provide public access to Navassa National Wildlife Refuge and Desecheo National Wildlife Refuge.
N|108|Making further continuing appropriations for the fiscal year 2005, and for other purposes.
N|108|A resolution congratulating the Boston Red Sox on winning the 2004 World Series.
N|108|A resolution expressing the gratitude and appreciation of the Senate for the acts of heroism and military achievement of Major Richard D. Winters (Ret.) during World War II, and commending him for leadership and valor in leading the men of Easy Company.
N|108|A resolution extending the authority for the Senate National Security Working Group.
N|108|A resolution establishing a special committee administered by the Committee on Governmental Affairs to conduct an investigation involving Halliburton Company and war profiteering, and other related matters.
Y|108|A bill to support the Boy Scouts of America and the Girl Scouts of the United States of America.
N|108|STOP Act
N|108|Training for Realtime Writers Act of 2004
N|108|National Center for Transportation Solutions Act of 2004
N|108|Federal Death Care Inspection and Disclosure Act
N|108|Snake River Water Rights Act of 2004
N|108|Dru's Law
N|108|Indian Tribal Development Corporation Feasibility Study Act of 2004
N|108|Waiving points of order against the conference report to accompany the bill (H.R. 4818) making appropriations for foreign operations, export financing, and related programs for the fiscal year ending September 30, 2005, and for other purposes, and providing for consideration of the joint resolution (H.J. Res. 114) making further continuing appropriations for the fiscal year 2005, and for other purposes.
N|108|Innovation Competitiveness Act of 2004
N|108|Expressing sympathy for the loss of Rachel Corrie in the Palestinian village of Rafah in the Gaza Strip on March 16, 2003.
N|108|Recognizing the sequencing of the human genome as one of the most significant scientific accomplishments of the past one hundred years and expressing support for the goals and ideals of Human Genome Month and DNA Day.
N|108|Recognizing the Boy Scouts of America for the public service the organization performs for neighborhoods and communities across the United States.
N|108|Waiving a requirement of clause 6(a) of rule XIII with respect to consideration of certain resolutions reported from the Committee on Rules.
N|108|Arizona Water Settlements Act
N|108|Encouraging The Former Yugoslav Republic of Macedonia (FYROM) and Greece to continue negotiations to determine a mutually acceptable official name for the FYROM, and for other purposes.
N|108|Save Our Waters From Sewage Act of 2004
N|108|Expressing support for the work of the National Endowment for Democracy in Venezuela.
N|108|A bill to limit Department of Defense contracting with firms under investigation by the Inspector General of the Department of Defense.
N|108|Medicare Rural Home Health Services Improvement Act of 2004
N|108|One Church One Child Act of 2004
N|108|Pediatric Palliative Care Act of 2003
N|108|American Bald Eagle Recovery and National Emblem Commemorative Coin Act
N|108|A bill to amend title 31 of the United States Code to increase the public debt limit.
N|108|Free Speech Protection Act of 2004
N|108|A resolution relating to displaced staff members of Senators and Senate leaders.
N|108|Directing the Clerk of the House of Representatives to make certain corrections to the enrollment of H.R. 1350.
N|108|A resolution expressing the sense of the Senate in support of a reinvigorated United States vision of freedom, peace, and democracy in the Middle East.
N|108|A resolution supporting the goals, activities, and ideals of National Prematurity Awareness Month.
N|108|Tax Technical Corrections Act of 2004
N|108|To require the prompt review by the Secretary of the Interior of the long-standing petitions for Federal recognition of certain Indian tribes, and for other purposes.
N|108|Prescott Marine Mammal Stranding Program Amendments of 2004
N|108|Critical Habitat Reform Act of 2004
N|108|Endangered Species Data Quality Act of 2004
N|108|Veterans Prescription Drugs Assistance Act
N|108|Honoring the life of astronaut Leroy Gordon Cooper, Jr.
N|108|A concurrent resolution expressing the sense of Congress that there should be established a National Visiting Nurse Association Week."
N|108|A bill to direct the Inspector General of the Department of Justice to submit semi-annual reports regarding settlements relating to false claims and fraud against the Federal Government.
N|108|Swain County Settlement Act of 2004
N|108|Asia Freedom Act of 2004
N|108|NASA Authorization Act of 2004
N|108|A resolution expressing the sense of the Senate concerning the individual Indian money account trust fund lawsuit.
N|108|A bill for the relief of Fatuka Kaikumba Flake.
N|108|Medicare Ambulance Payment Reform and Rural Equity Act of 2004
N|108|A concurrent resolution commending the National Oceanic and Atmospheric Administration and its employees for its dedication and hard work during Hurricanes Charley, Frances, Ivan, and Jeanne.
N|108|A concurrent resolution recognizing and honoring the life and legacy of Alexander Hamilton on the bicentennial of his death because of his standing as one of the most influential Founding Fathers of the United States.
N|108|National All Schedules Prescription Electronic Reporting Act of 2004
N|108|A bill to ensure a balanced survey of taxpayers in any system of precertification for the earned income tax credit.
N|108|A resolution to condemn human rights abuses in Laos.
N|108|Aviation Security Advancement Act
N|108|Firefighters Special Operation Task Force Act
N|108|A bill for the relief of Griselda Lopez Negrete.
N|108|A bill for the relief of Fereshteh Sani.
N|108|A bill for the relief of Alemseghed Mussie Tesfamical.
N|108|A bill for the relief of Luay Lufti Hadad.
N|108|A bill for the relief of Denes and Gyorgyi Fulop.
N|108|For the relief of David Adekoya.
N|108|National Food and Agricultural Science Act of 2004
Y|108|A bill to provide financial assistance for the rehabilitation of the Benjamin Franklin National Memorial in Philadelphia, Pennsylvania, and the development of an exhibit to commemorate the 300th anniversary of the birth of Benjamin Franklin.
N|108|A bill to reauthorize the Water Resources Act of 1984.
N|108|A concurrent resolution expressing the sense of Congress with respect to the murder of Emmett Till.
N|108|A concurrent resolution to direct the Secretary of the Senate to make corrections in the enrollment of the bill S. 150.
N|108|Wolf House Study Act of 2004
N|108|Class Action Fairness Act of 2004
N|108|A resolution to express support for the goals of National Adoption Month by promoting national awareness of adoption, celebrating children and families involved in adoption, and encouraging Americans to secure safety, permanency, and well being for all children.
N|108|Waiving points of order against the conference report to accompany the bill (H.R. 1350) to reauthorize the Individuals with Disabilities Education Act, and for other purposes.
N|108|Honoring the 10 communities selected to receive the 2004 All-America City Award.
N|108|Providing for consideration of motions to suspend the rules.
N|108|For the relief of Fatuka Kaikumba Flake.
N|108|For the relief of Gabriella Dee.
N|108|To amend the Internal Revenue Code of 1986 to deny the foreign tax credit and the benefits of deferral to companies doing business in Sudan until the Government of Sudan takes demonstrable steps to end genocide in Sudan.
N|108|Military Stalking Prevention Act of 2005
N|108|To provide for the disposition of the Federal property located in Anne Arundel County, Maryland, a portion of which is currently used by the District of Columbia as the Oak Hill juvenile detention facility.
N|108|Expressing the sense of Congress that the President should grant a posthumous pardon to John Arthur "Jack" Johnson for the 1913 racially motivated conviction of Johnson, which diminished his athletic, cultural, and historic significance, and tarnished his reputation.
N|108|To ensure a balanced survey of taxpayers in any system of precertification for the earned income tax credit.
N|108|Consumer Checking Account Fairness Act
N|108|Tax Technical Corrections Act of 2004
N|108|Iran Nuclear Proliferation Prevention Act
N|108|Commending those individuals that have donated prepaid telephone cards to members of the United States Armed Forces participating in Operation Enduring Freedom and Operation Iraqi Freedom.
N|108|Expressing the sense of Congress with respect to the murder of Emmett Till.
N|108|To amend the Immigration and Nationality Act to provide greater protections to domestic and foreign workers under the H-1B nonimmigrant worker program.
N|108|Recognizing and supporting the goals and ideals of National Adoption Month.
N|108|To provide for immigration relief in the case of certain immigrants who are innocent victims of immigration fraud.
N|108|Retirement Enhancement Act of 2004
N|108|Retirement Enhancement Revenue Act of 2004
N|108|Financial Transactions Equity Act of 2004
N|108|Expressing the sense of the House of Representatives that there should be equal pay for substantially equal work performed by public sector and private sector employees within each State and locality in which such employees work.
N|108|Recognizing the importance of local capacity building within developing countries to create sustainable, long-term international development.
N|108|To amend title 23, United States Code, relating to high occupancy vehicle lanes.
N|108|To amend section 304 of the Tariff Act of 1930 with respect to the marking of imported home furniture.
N|108|Full Funding for IDEA Now Act of 2003
N|108|Keep Our Promise to America's Children and Teachers Act
N|108|To amend title XIX of the Social Security Act to extend Medicare cost-sharing for the Medicare part B premium for qualifying individuals through September 2005.
N|108|Congratulating the Boston Red Sox on winning the 2004 World Series.
N|108|Waiving a requirement of clause 6(a) of rule XIII with respect to consideration of certain resolutions reported from the Committee on Rules.
N|108|Waiving a requirement of clause 6(a) of rule XIII with respect to consideration of certain resolutions reported from the Committee on Rules.
N|108|Terrorism Insurance Backstop Extension Act of 2004
N|108|Providing for consideration of the bill (S. 2986) to amend title 31 of the United States Code to increase the public debt limit.
N|108|National Park Anniversaries--Great American Spaces Commemorative Coin Act
N|108|A resolution urging the Government of Ukraine to ensure a democratic, transparent, and fair election process for the Presidential run-off election on November 21, 2004.
N|108|A resolution to honor the people of Georgia on the first anniversary of the Rose Revolution.
N|108|National Children's Memorial Day
N|108|A resolution designating December 13, 2004, as "National Day of the Horse" and encouraging the people of the United States to be mindful of the contribution of horses to the economy, history, and character of the United States.
N|108|A resolution expressing the sense of the Senate that October 17, 1984, the date of the restoration by the Federal Government of Federal recognition to the Confederated Tribes of Coos, Lower Umpqua, and Siuslaw Indians, should be memorialized.
N|108|A resolution commending Inez Sitter for her service to the United States.
N|108|A resolution authorizing the printing of tributes and other related materials in honor of the late Senator Paul Simon.
N|108|A resolution honoring the life of astronaut Leroy Gordon Cooper, Jr.
N|108|A concurrent resolution honoring the life and contribution of Yogi Bhajan, a leader of the Sikhs, and expressing condolences to the Sikh community on his passing.
N|108|Rural and Part-time Firefighter Training Fairness Act
N|108|HRIFA Improvement Act of 2004
N|108|FLU-VIA
N|108|Commercial Space Launch Amendments Act of 2004
N|108|A bill entitled the "Hybrid HOV Access Act".
N|108|A bill to amend chapter 99 of the Internal Revenue Code of 1986 to clarify that certain coal industry health benefits may not be modified or terminated.
N|108|Disabled Veterans Transition Assistance Act of 2004
N|108|Southern Nevada Limited Transition Area Act
N|108|A concurrent resolution expressing the sense of Congress that the Department of Defense should continue to exercise its statutory authority to support the activities of the Boy Scouts of America, in particular the periodic national and world Boy Scout Jamborees.
N|108|Laotian Democracy Act
N|108|A bill for the relief of Heilit Martinez.
N|108|Montana National Forests Boundary Adjustment Act of 2004
N|108|A bill to provide for an additional place of holding court in the northern district of New York, and for other purposes.
N|108|A bill to permanently extend the income tax deduction for college tuition expenses.
N|108|To suspend temporarily the duty on ACRYPET UT100.
N|108|To amend the Harmonized Tariff Schedule of the United States with respect to rattan webbing.
N|108|A bill to amend the Office of Federal Procurement Policy Act to establish a governmentwide policy requiring competition in certain executive agency procurements.
N|108|Pecos National Historical Park Land Exchange Act of 2004
N|108|Long Island Sound Stewardship Act of 2004
N|108|Redwood National Park Boundary Adjustment Act of 2004
N|108|Caribbean National Forest Act of 2004
N|108|Proposing an amendment to the Constitution of the United States to abolish the Electoral College and to provide for the direct election of the President and Vice President of the United States.
N|108|Strongly denouncing the danger of international terrorism inspired by an apostate vision of Islam, one of the historic religions of the world.
N|108|Permanent Sales Tax Deduction Act of 2004
N|108|Urging the European Council to continue to maintain its embargo on the sales of arms to the People's Republic of China.
N|108|To clarify that certain coal industry health benefits may not be modified or terminated.
N|108|Rocky Mountain National Park Boundary Adjustment Act of 2004
N|108|Hybrid HOV Access Act of 2004
N|108|To establish an interagency aerospace revitalization task force to develop a national strategy for aerospace workforce cultivation, training, and recruitment.
Y|108|Prevention of and Response to Sexual Assault and Domestic Violence in the Military Act
N|108|Expressing the sense of the Congress that the Department of Defense should continue to exercise its statutory authority to support the activities of the Boy Scouts of America, in particular the periodic national and world Boy Scout Jamborees.
N|108|Fair Access and Individual Responsibilities Act of 2004
N|108|Presidential Succession Act of 2004
N|108|Proposing an amendment to the Constitution of the United States relating to the process by which the House of Representatives chooses the President of the United States in the event no candidate receives a majority of the electoral votes.
N|108|A bill to authorize appropriations for the New Jersey Coastal Heritage Trail Route, and for other purposes.
N|108|Uinta Research and Curatorial Center Act
N|108|Upper White Salmon Wild and Scenic Rivers Act
N|108|Upper Connecticut River Partnership Act
N|108|Discharged Combat Veterans Medical Care Extension Act
N|108|For the relief of Nancy P. Gilbert.
N|108|Matt's Health Insurance Plan Act of 2004
N|108|New Shipper Review Amendment Act of 2004
N|108|A bill to provide that funds received as universal service contributions under section 254 of the Communications Act of 1934 and the universal service support programs established pursuant thereto are not subject to certain provisions of title 31, United States Code, commonly known as the Antideficiency Act, for a period of time.
N|108|Rural Teacher Housing Act of 2004
N|108|Softwood Lumber Duties Liquidation Act of 2004
N|108|National Infrastructure Improvement Act of 2004
N|108|Indian Tribal Detention Facility Reform Act of 2004
N|108|A concurrent resolution to correct the enrollment of H. R. 1417.
N|108|A bill to reduce temporarily the duty on palm fatty acid distillate.
N|108|Pechanga Band of Luiseno Mission Indians Land Transfer Act of 2004
N|108|Long Term Care Quality and Consumer Information Improvement Act
N|108|Truth in Trials Act
N|108|Community Restoration and Revitalization Act of 2004
N|108|United Nations Accountability Act of 2004
N|108|For the relief of Griselda Lopez Negrete.
N|108|To amend the Immigration and Nationality Act to limit the timing of issuance of H-2B visas during a fiscal year.
N|108|To designate the facility of the United States Postal Service located at 30777 Rancho California Road in Temecula, California, as the "Dalip Singh Saund Post Office Building".
N|108|Flight 587 Accountability Act
Y|108|Congratulating the Seattle Storm for winning the 2004 Women's National Basketball Association Championship.
N|108|Veterans' Adjustable Rate Home Loan Extension Act of 2004
N|108|Veterans Fiduciary Act of 2004
N|108|To amend title 38, United States Code, to increase the maximum amount of a home loan guarantee available to a veteran.
N|108|Ocean and Coastal Mapping Integration Act
N|108|National Ocean Exploration Program Act 
N|108|A concurrent resolution honoring and memorializing the passengers and crew of United Airlines Flight 93.
N|108|Federal Regulatory Improvement Act of 2004
N|108|A bill to designate the facility of the United States Postal Service located at 555 West 180th Street in New York, New York, as the "Sergeant Riayan A. Tejeda Post Office".
N|108|A concurrent resolution supporting the goals and ideals of the World Year of Physics.
N|108|A bill to grant a Federal charter to the National American Indian Veterans, Incorporated.
N|108|Executive Branch Financial Accountability Reporting Act of 2004
N|108|Ponce de Leon Discovery of Florida Quincentennial Commission Act
N|108|A bill to amend the Agricultural Marketing Act of 1946 to expand the country of origin labeling for certain covered commodities, and for other purposes.
N|108|Homeownership Opportunities for Native Americans Act of 2004
N|108|A bill for the relief of Nabil Raja Dandan, Ketty Dandan, Souzi Dandan, Raja Nabil Dandan, and Sandra Dandan.
N|108|American Veterans Disabled for Life Commemorative Coin Act
N|108|Unaccompanied Alien Child Protection Act of 2004
N|108|A bill for the relief of Tchisou Tho.
N|108|A bill to amend the Internal Revenue Code of 1986 to exclude from gross income the gain from the sale of a principal residence by certain employees of the intelligence community.
N|108|A resolution supporting the goals and ideas of National Time Out Day to promote the adoption of the Joint Commission on Accreditation of Healthcare Organizations' universal protocol for preventing errors in the operating room.
N|108|Medicare Hospice Demonstration Act of 2004
N|108|Palliative Care Training Act
N|108|A bill to provide for continued health benefits coverage for certain Federal employees, and for other purposes.
N|108|Department of the Interior Tribal Self-Governance Act of 2004
N|108|Department of Health and Human Services Tribal Self-Governance Amendments Act of 2004
N|108|Reservists Pay Security Act of 2004
N|108|9/11 Recommendations Implementation Act
N|108|Maritime Transportation Amendments of 2004
N|108|Recognizing the 130th anniversary of the creation of lifesaving stations on the Great Lakes, which became part of the United States Life-Saving Service, and for other purposes.
Y|108|A bill to amend title 38, United States Code, to make a stillborn child an insurable dependent for purposes of the Servicemembers' Group Life Insurance program.
N|108|Coventional Arms Threat Reduction Act of 2004
N|108|Nunn-Lugar Cooperative Threat Reduction Act of 2004
N|108|Supporting the goals and ideals of Pancreatic Cancer Awareness Month.
N|108|Honoring the life and contributions of Yogi Bhajan, a leader of Sikhs, and expressing condolences to the Sikh community on his passing.
N|108|To amend the Internal Revenue Code of 1986 to provide employers a double deduction of certain employee training expenses.
N|108|To ensure that a former Federal building in Shreveport, Louisiana, is no longer known as the "Joe Waggoner Federal Building".
Y|108|Commending the "Trust in the Lives of Older Women" program and encouraging community organizations to participate in the program.
N|108|Amending the Rules of the House of Representatives to make a technical correction on limitations on the use of the frank.
N|108|Native American Technical Corrections Act of 2004
N|108|High Risk Nonprofit Security Enhancement Act of 2004
N|108|Fritz Hollings National Ocean Policy and Leadership Act
N|108|American Home Fire Safety Act
N|108|Native Hawaiian Health Care Improvement Reauthorization Act of 2003
N|108|Federal Acknowledgment Process Reform Act of 2004
N|108|National Park Centennial Act of 2004
N|108|Gulf of the Farallones and Cordell Bank National Marine Sanctuaries Boundary Modification and Protection Act
N|108|Atchafalaya National Heritage Area Act
N|108|Central Idaho Economic Development and Recreation Act of 2004
N|108|To replace a Coastal Barrier Resources System map relating to Coastal Barrier Resources System Grayton Beach Unit FL-95P in Walton County, Florida.
N|108|Utah Recreational Lands Exchange Act
N|108|Act to Save America's Forests
N|108|To amend the Surface Mining Control and Reclamation Act of 1977 to modify requirements relating to transfers from the Abandoned Mine Reclamation Fund, and for other purposes.
N|108|To authorize the placement of an equestrian statue depicting frontiersman, explorer, and missionary Jacob Hamblin on the grounds of the Forest Service Kaibab Plateau Visitor Center in Jacob Lake, Arizona, and for other purposes.
N|108|Piedras Blancas Historic Light Station Outstanding Natural Area Act of 2004
N|108|Lowell National Historical Park Boundary Adjustment Act
N|108|Hawai'i Volcanoes National Park Boundary Extension Act of 2004
N|108|Casa Grande Ruins National Monument Boundary Modification Act of 2004
N|108|Surface Transportation Extension Act of 2004, Part V
N|108|To amend the Rocky Mountain Arsenal National Wildlife Refuge Act of 1992 to rename the Rocky Mountain Arsenal National Wildlife Refuge as the Pat Schroeder National Wildlife Refuge.
N|108|A bill to strike limitations on funding and extend the period of authorization for certain coastal wetland conservation projects.
N|108|Bakers Creek Air Crash Memorial Act of 2004
N|108|Indian Child Protection and Family Violence Prevention Reauthorization Act of 2004
N|108|Expressing the sense of the House of Representatives that the Secretary of Homeland Security should designate Haiti, Grenada, Jamaica, the Dominican Republic, and the Bahamas under section 244 of the Immigration and Nationality Act to make nationals of those countries eligible for temporary protected status under that section.
N|108|Condemning all efforts to suppress and intimidate voters in the United States and reaffirming that the right to vote is a fundamental right of all eligible United States citizens.
N|108|Expressing the sense of the House of Representatives with respect to the continuity of Government and the smooth transition of executive power.
N|108|Proposing an amendment to the Constitution of the United States to provide for the direct election of the President and Vice President by the popular vote of all citizens of the United States regardless of place of residence.
N|108|Proposing an amendment to the Constitution of the United States to lower the age qualification for Senators from 30 years of age to 21 years of age and for Members of the House of Representatives from 25 years of age to 21 years of age.
Y|108|Proposing an amendment to the Constitution of the United States to make eligible for the Office of President a person who is not a natural born citizen of the United States but has been a United States citizen for at least 20 years.
N|108|Every Vote Counts Amendment
N|108|Methamphetamine Abuse Prevention Act of 2004
N|108|To authorize "Meth Watch" program grants.
N|108|To amend title 18, United States Code, to prohibit members of Congress from entering into any agreement with any foreign person or any commercial entity for the purpose of influencing or seeking a change in a law or regulation of the United States that would ease any restriction on a state sponsor of terrorism, and for other purposes.
N|108|To grant a Federal charter to the National American Indian Veterans, Incorporated.
N|108|Emergency Relief for Caribbean Nationals Act
N|108|New War on Cancer Act
N|108|Patent Quality Assistance Act of 2004
N|108|To amend title 4, United States Code, to clarify the treatment of self-employment for purposes of the limitation on State taxation of retirement income.
N|108|Winning the War on Terror Act of 2004
N|108|Providing Reliable Officers, Technology, Education, Community Prosecutors, and Training In Our Neighborhoods Act of 2004
N|108|To create an additional judgeship for the eastern district of California, and for other purposes.
N|108|To convert certain temporary judgeships to permanent judgeships, to create an additional judgeship for the district of Nebraska and for the eastern district of California, and for other purposes.
N|108|Domestic Trafficking Victims Protection Act of 2004
N|108|To improve the security clearance process and increase the number of detention beds along the United States-Mexico border.
N|108|Plant Breeders Equity Act of 2004
N|108|Constantine Menges Ukraine Democracy and Fair Elections Act of 2004
N|108|Voter Protection Act of 2004
N|108|Captive Mammal Protection Act of 2004
N|108|To require the Secretary of Homeland Security to establish a U.S. Immigration and Customs Enforcement Office of Investigations field office in Tulsa, Oklahoma.
N|108|To direct the Attorney General and Secretary of Homeland Security to conduct a pilot study under which the Secretary may issue public warnings regarding threats to homeland security using an AMBER Alert system.
N|108|To require the Attorney General to establish a Federal register of cases of child abuse or neglect.
N|108|Gun-Free Hospital Zones Act
N|108|To permanently reenact chapter 12 of title 11 of the United States Code, relating to family farmers.
N|108|To clarify that service marks, collective marks, and certification marks are entitled to the same protections, rights, and privileges of trademarks.
N|108|Combat Meth Act
N|108|Homeland Security Civil Rights and Civil Liberties Protection Act of 2004
N|108|Protection of Family Farmers Act of 2004
N|108|Ammonium Nitrate Security Act
N|108|Preservation of Orphan Works Act
N|108|Secure Borders Act
N|108|Patients' Privacy Protection Act of 2004
N|108|Illegal Immigration Enforcement and Social Security Protection Act of 2004
N|108|Justice in Sentencing Act of 2004
N|108|Constantine Menges Ukraine Democracy and Fair Elections Act of 2004
N|108|Neighborhood Security Act
N|108|To reinstate the repealed criminal provisions relating to assault weapons and large capacity ammunition feeding devices.
N|108|Victim Compensation Fund Extension Act
N|108|Re-Entry Enhancement Act
N|108|To amend the Immigration and Nationality Act to permit alien children receiving medical treatment in the United States to be classified as immediate relatives to avoid extreme hardship to themselves or their immediate relative alien parents.
N|108|9/11 Commission Recommendations Implementation Act of 2004
N|108|A bill to clarify that service marks, collective marks, and certification marks are entitled to the same protections, rights, and privileges of trademarks.
N|108|Active Duty Naturalization Accommodation Act of 2004
N|108|Democracy in Congress Act of 2004
N|108|A concurrent resolution expressing the sense of Congress that the Supreme Court of the United States should act expeditiously to resolve the confusion and inconsistency in the Federal criminal justice system caused by its decision in Blakely v. Washington, and for other purposes.
N|108|A bill to make the program for national criminal history background checks for volunteer groups permanent.
N|108|Missing Child Cold Case Review Act of 2004
N|108|Taxpayer Abuse Prevention Act
N|108|Matthew Boisvert Help Extend Respect Owed to Every Soldier (HEROES) Act
N|108|International Remittance Consumer Protection Act of 2004
N|108|Corporate Advance Disclosure Act of 2004
N|108|Freedom to Display the American Flag Act of 2004
N|108|Children's Development Commission Act (Kiddie Mac)
N|108|Preservation of Federalism in Banking Act
N|108|Native American Housing Enhancement Act of 2004
N|108|Washington National Opera Commemorative Coin Act of 2004
N|108|For the relief of Durreshahwar Durreshahwar, Nida Hasan, Asna Hasan, Anum Hasan, and Iqra Hasan.
N|108|For the relief of Richi James Lesley.
N|108|Hibben Center Act
N|108|Expressing the sense of the Congress in recognition of the contributions of the seven Columbia astronauts by supporting establishment of a Columbia Memorial Space Science Learning Center.
N|108|John F. Kennedy Center Reauthorization Act of 2004
N|108|Taxpayer-Teacher Protection Act of 2004
N|108|To designate the facility of the United States Postal Service located at 23055 Sherman Way in West Hills, California, as the "Evan Asa Ashcraft Post Office Building".
N|108|To designate the facility of the United States Postal Service located at 11110 Sunset Hills Road in Reston, Virginia, as the "Martha Pennino Post Office Building".
N|108|Special Olympics Sport and Empowerment Act of 2004
N|108|Justice for All Act of 2004
N|108|To designate the facility of the United States Postal Service located at 1001 Williams Street in Ignacio, Colorado, as the "Leonard C. Burch Post Office Building".
N|108|To designate the facility of the United States Postal Service located at United States Route 1 in Ridgeway, North Carolina, as the "Eva Holtzman Post Office".
N|108|To designate the facility of the United States Postal Service located at 411 Midway Avenue in Mascotte, Florida, as the "Specialist Eric Ramirez Post Office".
N|108|Federal Regulatory Improvement Act of 2004
N|108|To amend the Colorado Canyons National Conservation Area and Black Ridge Canyons Wilderness Act of 2000 to rename the Colorado Canyons National Conservation Area as the McInnis Canyons National Conservation Area.
N|108|To amend the Federal Water Pollution Control Act to reauthorize the National Estuary Program.
N|108|To designate the facility of the United States Postal Service located at 19504 Linden Boulevard in St. Albans, New York, as the "Archie Spigner Post Office Building".
N|108|To designate the facility of the United States Postal Service located at 10 West Prospect Street in Nanuet, New York, as the "Anthony I. Lombardi Memorial Post Office Building".
N|108|Truman Farm Home Expansion Act
N|108|To designate the facility of the United States Postal Service located at 1115 South Clinton Avenue in Dunn, North Carolina, as the "General William Carey Lee Post Office Building".
N|108|Wilson's Creek National Battlefield Boundary Adjustment Act of 2004
N|108|Homeownership Opportunities for Native Americans Act of 2004
N|108|To designate the facility of the United States Postal Service located at 2811 Springdale Avenue in Springdale, Arkansas, as the "Harvey and Bernice Jones Post Office Building".
N|108|To amend section 274A of the Immigration and Nationality Act to improve the process for verifying an individual's eligibility for employment.
N|108|Chickasaw National Recreation Area Land Exchange Act of 2004
N|108|To designate the facility of the United States Postal Service located at 555 West 180th Street in New York, New York, as the 'Sergeant Riayan A. Tejeda Post Office'.
N|108|Lewis and Clark National Historical Park Designation Act
N|108|2004 District of Columbia Omnibus Authorization Act
N|108|John Muir National Historic Site Boundary Adjustment Act
N|108|Brown Tree Snake Control and Eradication Act of 2004
N|108|National Archives and Records Administration Efficiency Act of 2004
N|108|Provo River Project Transfer Act
N|108|To provide for the conveyance of several small parcels of National Forest System land in the Apalachicola National Forest, Florida, to resolve boundary discrepancies involving the Mt. Trial Primitive Baptist Church of Wakulla County, Florida, and for other purposes.
N|108|To clarify the boundaries of the John H. Chafee Coast Barrier Resources System Cedar Keys Unit P25 on Otherwise Protected Area P25P.
N|108|To amend the Agricultural Adjustment Act to remove the requirement that processors be members of an agency administering a marketing order applicable to pears.
N|108|To amend the Organic Act of Guam for the purposes of clarifying the local judicial structure of Guam.
N|108|Asthmatic Schoolchildren's Treatment and Health Management Act of 2004
N|108|To protect the voting rights of members of the Armed Services in elections for the Delegate representing American Samoa in the United States House of Representatives, and for other purposes.
N|108|Noxious Weed Control and Eradication Act of 2004
N|108|Federal Workforce Flexibility Act of 2004
N|108|Mentally Ill Offender Treatment and Crime Reduction Act of 2004
N|108|Ronald W. Reagan National Defense Authorization Act for Fiscal Year 2005
N|108|Space and Aeronautics Prize Act
N|108|American Indian Probate Reform Act of 2004
N|108|Economic Development Administration Reauthorization Act of 2004
N|108|Fort Donelson National Battlefield Expansion Act of 2004
N|108|Higher Education Extension Act of 2004
N|108|Mammography Quality Standards Reauthorization Act of 2004
N|108|Assistive Technology Act of 2004
N|108|Veterans' Compensation Cost-of-Living Adjustment Act of 2004
N|108|Pancreatic Islet Cell Transplantation Act of 2004
N|108|A bill to modify and extend certain privatization requirements of the Communications Satellite Act of 1962.
N|108|Prevention of Child Abduction Partnership Act
N|108|Family Farmer Bankruptcy Relief Act of 2004
N|108|Water Supply, Reliability, and Environmental Improvement Act
N|108|State Justice Institute Reauthorization Act of 2004
N|108|National Earthquake Hazards Reduction Program Reauthorization Act of 2004
N|108|To amend the securities laws to permit church pension plans to be invested in collective trusts.
N|108|A bill to authorize the President to award a gold medal on behalf of the Congress to Reverend Doctor Martin Luther King , Jr. (posthumously) and his widow Coretta Scott King in recognition of their contributions to the Nation on behalf of the civil rights movement.
N|108|To suspend temporarily the duty on Polyethylene HE2591.
N|108|Let Parents Raise Their Kids Act of 2004
N|108|To amend title II of the Social Security Act to ensure that the receipts and disbursements of the Social Security trust funds are not included in a unified Federal budget.
N|108|New Shipper Review Amendment Act of 2004
N|108|Shadow Wolves Border Defense Act
N|108|To amend part B of title XVIII of the Social Security Act to repeal the reduction in Medicare payment through competitive bidding for certain items of durable medical equipment.
N|108|Clinical Laboratory Compliance Improvement Act of 2004
N|108|To extend the filing deadline for certain Medicare claims to account for a delay in processing adjustments from secondary payor status to primary payor status.
N|108|To suspend temporarily the duty on Acid blue 324.
N|108|To suspend temporarily the duty on Acid yellow 235.
N|108|To suspend temporarily the duty on 1,4-Benzenedicarboxylic acid, polymer with N,N'-bis(2-aminoethyl)- 1,2-ethanediamine, cyclized, methyl sulfates.
N|108|To suspend temporarily the duty on Direct blue 90.
N|108|To suspend temporarily the duty on Acid red 336.
N|108|To suspend temporarily the duty on Disperse blue 281.
N|108|To suspend temporarily the duty on Basic blue 154.
N|108|To suspend temporarily the duty on Acid brown 298.
N|108|To suspend temporarily the duty on Basic yellow 94.
N|108|Community Pharmacy Preservation Act of 2004
N|108|American Jobs Creation Act of 2004
N|108|Anabolic Steroid Control Act of 2004
N|108|To amend the Congressional Accountability Act of 1995 to permit members of the Board of Directors of the Office of Compliance to serve for 2 terms.
N|108|A bill to authorize the Secretary of Agriculture to sell or exchange all or part of certain administrative sites and other land in the Ozark-St. Francis and Ouachita National Forests and to use funds derived from the sale or exchange to acquire, construct, or improve administrative sites.
N|108|A bill to extend certain authority of the Supreme Court Police, modify the venue of prosecutions relating to the Supreme Court building and grounds, and authorize the acceptance of gifts to the United States Supreme Court.
N|108|Garrett Lee Smith Memorial Act
N|108|Chimayo Water Supply System and Espanola Filtration Facility Act of 2004
N|108|A bill to designate the facility of the United States Postal Service located at 4141 Postmark Drive, Anchorage, Alaska, as the 'Robert J. Opinsky Post Office Building'.
N|108|National Park System Laws Technical Amendments Act of 2004
N|108|A bill to amend the Lease Lot Conveyance Act of 2002 to provide that the amounts received by the United States under that Act shall be deposited in the reclamation fund, and for other purposes.
N|108|National Guard and Reserve Bill of Rights Act of 2004
N|108|To establish limitations on the utilization and disposal of the Franklin Delano Roosevelt campus of the Department of Veterans Affairs Hudson Valley Health Care System at Montrose, New York, and for other purposes.
N|108|To provide for the establishment of a Department of Veterans Affairs Community-Based Outpatient Clinic (CBOC) for veterans on the grounds of the Navy Supply Corps School in Athens, Georgia.
N|108|Comprehensive Assistance for Veterans Exposed to Traumatic Stressors Act of 2004
N|108|To amend title 38, United States Code, to authorize the placement in a national cemetery of memorial markers for the purpose of commemorating servicemembers or other persons whose remains are interred in an American Battle Monuments Commission cemetery.
N|108|G.I. Bill Enhancement Act of 2004
N|108|Servicemembers Anti-Predatory Lending Protection Act
N|108|To extend the life of the Advisory Committee on Veterans Business Affairs until September 30, 2006.
N|108|Servicemembers' Flexible Educational Assistance Act
N|108|National Guard and Reserve Education Act of 2004
N|108|Native American Veterans Home Loan Act of 2004
N|108|Armed Forces Voluntary Immunization and Heath Justice Act of 2004
N|108|Belarus Democracy Act of 2004
N|108|A bill to authorize the Gateway Arch in St. Louis, Missouri, to be illuminated by pink lights in honor of breast cancer awareness month.
N|108|To designate the parcel of land containing the facility of the Agricultural Research Service of the Department of Agriculture located at State Highway 26 West in Poplarville, Mississippi, as the "Thad Cochran Southern Horticultural Laboratory Site".
N|108|Southern Ute and Colorado Intergovernmental Agreement Implementation Act of 2004
N|108|District of Columbia Appropriations Act, 2005
N|108|Department of Homeland Security Appropriations Act, 2005
N|108|North Korean Human Rights Act of 2004
N|108|A bill to redesignate the Ridges Basin Reservoir, Colorado, as Lake Nighthorse.
Y|108|A bill to revise and extend the Boys and Girls Clubs of America.
N|108|Tapoco Project Licensing Act of 2004
N|108|Arapaho and Roosevelt National Forests Land Exchange Act of 2004
N|108|El Camino Real de los Tejas National Historic Trail Act
N|108|A bill to transfer federal lands between the Secretary of Agriculture and the Secretary of the Interior.
N|108|Manhattan Project National Historical Park Study Act
N|108|A bill to replace certain Coastal Barrier Resources System maps.
N|108|A bill to direct the Secretary of Agriculture to convey to the New Hope Cemetery Association certain land in the State of Arkansas for use as a cemetery.
N|108|Alaska Native Allotment Subdivision Act
N|108|To direct the National Science Foundation to establish a competitive grant program for institutions of higher education to enhance education and job training opportunities in mathematics, science, engineering, and technology.
N|108|A concurrent resolution authorizing the printing of a commemorative document in memory of the late President of the United States, Ronald Wilson Reagan.
N|108|To clarify the tax treatment of bonds and other obligations issued by the Government of American Samoa.
N|108|To authorize the Board of Regents of the Smithsonian Institution to carry out construction and related activities in support of the collaborative Very Energetic Radiation Imaging Telescope Array System (VERITAS) project on Kitt Peak near Tucson, Arizona.
N|108|Department of Homeland Security Financial Accountability Act
N|108|To amend the Act of November 2, 1966 (80 Stat. 1112), to allow binding arbitration clauses to be included in all contracts affecting the land within the Salt River Pima-Maricopa Indian Reservation.
N|108|To amend the Safe Drinking Water Act to reauthorize the New York City Watershed Protection Program.
N|108|National Wildlife Refuge Volunteer Act of 2004
N|108|Global Anti-Semitism Review Act of 2004
N|108|For the relief of Dylan Brian Benwell.
N|108|For the relief of Thomas W. Sikes and Wellington Trade, Inc., doing business as Containerhouse.
N|108|Federal Land Recreational Visitor Protection Act of 2004
N|108|Major Regulation Cost Review Act of 2004
N|108|Restore Open Government Act of 2004
N|108|Military Construction Appropriations and Emergency Hurricane Supplemental Appropriations Act, 2005
N|108|Craig Recreation Land Purchase Act
N|108|Comprehensive Long-Term Care Support Act of 2004
N|108|To amend part A of title I of the Elementary and Secondary Education Act of 1965 to include hold-harmless provisions for local educational agencies that no longer meet the minimum eligibility criteria for targeted grants and education finance incentive grants, and for other purposes.
N|108|Smart from the Start Preschool Education for America Act of 2004
N|108|Supporting the goals and ideas of Hispanic Engineering, Science, and Technology Week and recognizing the University of Texas-Pan American for its efforts to prepare Hispanic youth for careers in engineering, science, and technology.
N|108|Emergency Loan Abuse Prevention Act of 2004
N|108|Recognizing the achievements of the National Captioning Institute in providing closed captioning services to Americans who are deaf or hard-of-hearing.
N|108|To amend the Internal Revenue Code of 1986 to provide for small business tax incentives, to amend the Fair Labor Standards Act of 1938 to increase the minimum wage and to increase the exemption for annual gross volume of sales made or business done by an enterprise, and for other purposes.
N|108|Correcting the enrollment of H.R. 5107.
N|108|Providing for an adjournment or recess of the two Houses.
N|108|Directing the Clerk of the House of Representatives to make a technical correction in the enrollment of the bill H.R. 4200.
N|108|Recognizing and honoring military unit family support volunteers for their dedicated service to the United States, the Armed Forces, and members of the Armed Forces and their families.
N|108|Expressing the sense of Congress that it is appropriate to annually observe Patriot Day, September 11, with voluntary acts of service and compassion.
N|108|To extend the authority of the Livestock Mandatory Reporting Act of 1999 through October 22, 2005.
N|108|To amend the Federal Crop Insurance Act to expand the Agricultural Management Assistance Program to include the State of Hawaii.
N|108|A resolution designating November 7, 2004, as "National Native American Veterans Day" to honor the service of Native Americans in the United States Armed Forces and the contribution of Native Americans to the defense of the United States.
N|108|Intelligence Authorization Act for Fiscal Year 2005
N|108|A resolution celebrating the anniversaries of the International Polar Years (1882-1883 and 1932-1933) and International Geophysical Year (1957-1958) and supporting a continuation of this international science year tradition in 2007-2008.
Y|108|A resolution extending birthday greetings to Joseph Barbera on the occasion of his 100th birthday and designating March 2005 as "Animated Family Entertainment Month".
N|108|A bill relating to State regulation of access to hunting and fishing.
N|108|Protecting Our Communities by Making Returning Offenders Better Citizens Act of 2004
N|108|Guardsmen and Reservists Financial Relief Act of 2004
N|108|A resolution to instruct conferees to the Agriculture, Rural Development, Food and Drug Administration, and related agencies appropriations bill, 2005 or on a consolidated appropriations measure that includes the substance of that act.
N|108|A concurrent resolution to correct the enrollment of H.R. 4837
N|108|A resolution relating to refundable tax credits for municipalities.
N|108|Enhancing Nutrition in Medical Education Act of 2004
N|108|Safe Drinking Water for Healthy Communities Act of 2004
N|108|Coordinated Environmental Health Network Act of 2004
N|108|Disaster Area Health and Environmental Monitoring Act of 2004
Y|108|Preventing Sexual Assaults in the Military Act of 2004
N|108|Renewable Energy Financing Incentive Act of 2004
N|108|Relief for Life-Saving Blood Donors Act of 2004
N|108|Ponce de Leon Discovery of Florida Quincentennial Commission Act
N|108|Crosby-Puller Combat Wounds Compensation Act
N|108|Pension Fairness Act of 2004
N|108|Disabled Federal Employees Protection Act
N|108|United States Boxing Commission Act
N|108|Fair Access to Clinical Trials Act
N|108|Firearm Theft Prevention Act of 2004
N|108|A bill to amend the Fair Labor Standards Act of 1938 to clarify regulations relating to overtime compensation.
N|108|Family Smoking Prevention and Tobacco Control Act
N|108|A resolution designating November 2004 as "National Runaway Prevention Month".
N|108|A resolution expressing the sense of the Senate with respect to prostate cancer information.
N|108|A resolution recognizing the significant achievement of the people and Government of Afghanistan since the Emergency Loya Jirga was held in June 2002 in establishing the foundation and means to hold presidential elections on October 9, 2004.
N|108|A resolution designating the week beginning of October 17, 2004, as "National Character Counts Week".
N|108|A resolution honoring the young victims of the Sixteenth Street Baptist Church bombing recognizing the historical significance of the tragic event, and commending the efforts of law enforcement personnel to bring the perpetrators of this crime to justice on the occasion of its 40th anniversary.
N|108|A resolution designating November 2004 as "American Music Month" to celebrate and honor music performance, education, and scholarship in the United States.
N|108|A resolution congratulating the SpaceShipOne team for achieving a historic milestone in human space flight.
N|108|A resolution designating the week of October 24, 2004, through October 30, 2004, as "National Childhood Lead Poisoning Prevention Week".
N|108|A resolution designating October 14, 2004, as "Lights On Afterschool! Day".
N|108|A resolution supporting the goals of Red Ribbon Week.
N|108|A resolution authorizing the printing of a revised edition of the Senate Rules and Manual.
Y|108|DNA Sexual Assault Justice Act of 2003
N|108|Amending the Rules of the House of Representatives to establish a standing Committee on Homeland Security and a standing Committee on Intelligence (with jurisdiction over appropriations for intelligence activities), and for other purposes.
N|108|American Indian Veterans Pay Restoration Act of 2004
N|108|To authorize the use of Strategic Petroleum Reserve capacity above 700,000,000 barrels to address sustained petroleum product price increases.
N|108|Teacher Training Expansion Act of 2004
N|108|Department of Veterans Affairs Real Property and Facilities Management Improvement Act of 2004
N|108|A bill to amend the Low-Income Home Energy Assistance Act of 1981 to reauthorize the Act, and for other purposes.
N|108|College Savings Act of 2004
N|108|Education Savings for Students Act of 2004
N|108|Preservation of Federalism in Banking Act
N|108|A bill to redesignate the project for navigation, Saco River, Maine, as an anchorage area.
N|108|Fair Gift Card Act
N|108|A resolution expressing the sense of the Senate that the 108th Congress should provide the necessary funds to make disaster assistance available for all customarily eligible agricultural producers as emergency spending and not funded by cuts to the farm bill.
N|108|Federal Employees Dental and Vision Benefits Enhancement Act of 2004
N|108|Resolution of the Ethiopia-Eritrea Border Dispute Act of 2004
N|108|A resolution to eliminate certain restrictions on service of a Senator on the Senate Select Committee on Intelligence.
N|108|Health Care Relief Act of 2004
N|108|Supporting the efforts and activities of individuals, organizations, and other entities to honor the lives of enslaved Africans in the United States and to make reparations to their descendants for slavery and its lingering effects.
N|108|Expressing the support of the House of Representatives for programs and activities to prevent perpetrators of fraud from victimizing senior citizens.
N|108|Youngstown State University Music for Our Youth Program Establishment Act
N|108|Of inquiry requesting the President and directing the Secretary of Health and Human Services provide certain documents to the House of Representatives relating to estimates and analyses of the cost of the Medicare prescription drug legislation.
N|108|National Uniformity for Food Act of 2004
N|108|Emergency Flu Response Act of 2004
N|108|Waiving a requirement of clause 6(a) of rule XIII with respect to consideration of certain resolutions reported from the Committee on Rules.
N|108|Green Chemistry Research and Development Act of 2004
N|108|Child Protection and Home Safety Act of 2004
N|108|A bill to convert certain temporary judgeships to permanent judgeships, to create an additional judgeship for the district of Nebraska, and for other purposes.
N|108|Disabled Veterans Transition Assistance Act of 2004
N|108|Local Control of Cellular Towers Act
N|108|Local Control of Broadcast Towers Act
N|108|Relating to a question of the privileges of the House.
N|108|Outsourcing Information Act of 2004
N|108|Qualified Personal Service Corporations Clarification Act of 2004
N|108|Public Broadcasting Reauthorization Act of 2004
N|108|Rush Hour Congestion Relief Act of 2004
N|108|Waiving points of order against the conference report to accompany the bill (H.R. 4200) to authorize appropriations for fiscal year 2005 for military activities of the Department of Defense, for military construction, and for defense activities of the Department of Energy, to prescribe personnel strengths for such fiscal year for the Armed Forces, and for other purposes.
N|108|A concurrent resolution recognizing community organization of public access defibrillation programs.
N|108|Little Butte/Bear Creek Subbasins Water Feasibility Act
N|108|Influenza Preparation and Vaccination Act
N|108|Asthmatic Schoolchildren's Treatment and Health Management Act of 2004
N|108|Ukraine Democracy and Fair Elections Act of 2004
N|108|Mortgage Cancellation Relief Act of 2004
N|108|Waiving a requirement of clause 6(a) of rule XIII with respect to consideration of certain resolutions reported from the Committee on Rules.
N|108|Utah Recreational Land Exchange Act of 2004
N|108|Coordinated Environmental Health Network Act of 2004
N|108|To withdraw normal trade relations treatment from the products of the People's Republic of China.
N|108|A concurrent resolution recognizing the significant achievements of the people and Government of Afghanistan since the Emergency Loya Jirga was held in June 2002 in establishing the foundation and means to hold presidential elections on October 9, 2004.
N|108|Program Assessment and Results Act
N|108|Norman Y. Mineta Research and Special Programs Improvement Act
N|108|A bill to direct the Secretary of the Interior to convey certain land held in trust for the Paiute Indian Tribe of Utah to the City of Richfield, Utah, and for other purposes.
N|108|To authorize the Gateway Arch in St. Louis, Missouri, to be illuminated by pink lights in honor of breast cancer awareness month.
N|108|United States-Israel Energy Cooperation Act
N|108|State High Risk Pool Funding Extension Act of 2004
N|108|La Cura Act of 2004
N|108|Nurse Education, Expansion, and Development Act of 2004
N|108|Managing Our Medicare and Medicaid Services and Protecting Our Parents Act
N|108|To require automobile dealers to disclose to consumers the presence of Event Data Recorders, or "black boxes" on new automobiles, and to require manufacturers to provide the consumer with the option to enable and disable such devices on future automobiles.
N|108|National Intelligence Reform Act of 2004
N|108|Influenza Vaccine Emergency Act
N|108|A bill to amend title XIX of the Social Security Act to prohibit payments to States under the medicaid program for redispensing prescription drugs.
N|108|To suspend temporarily the duty on chloroneb.
N|108|New Shipper Review Amendment Act of 2004
N|108|To suspend temporarily the duty on electron guns for cathode ray tubes (CRT's) with a high definition television screen aspect ratio of 16:9, and for other purposes.
N|108|Comprehensive Peace in Sudan Act
N|108|Internet Spyware (I-SPY) Prevention Act of 2004
N|108|To amend the Federal Water Pollution Control Act to extend the authorization of appropriations for the Lake Pontchartrain Basin Restoration Program from fiscal year 2005 to 2010.
N|108|Social Security Solvency Act of 2004
N|108|Keep the Promise of Medicare Act of 2004
N|108|Ending the Medicare Disability Waiting Period Act of 2004
N|108|Cancer Care Preservation Act of 2004
N|108|Fortifying America's Intellectual Property Rights (FAIR) Act
N|108|Medicare Equity Act of 2004
N|108|Green Mountain National Forest Land Adjustment Act of 2004
N|108|Northern Rio Grande National Heritage Area Act
N|108|A concurrent resolution recognizing that prevention of suicide is a compelling national priority.
N|108|A bill to extend the deadline for commencement of construction of a hydroelectric project in the State of Alaska.
N|108|To amend title XIX of the Social Security Act to require staff working with developmentally disabled individuals to call emergency services in the event of a life-threatening situation.
N|108|Renewable Energy Security Act of 2004
N|108|Safe Food Act of 2004
N|108|Telephone Tax Relief for Seniors Act
N|108|Direct Support Professional Fairness and Security Act of 2004
N|108|Alcohol Without Liquid Machine Safety Act of 2004
N|108|To direct the Consumer Product Safety Commission to declare Yo-Yo Waterball toys to be a banned hazardous products.
N|108|Boutique Fuels Reduction Act of 2004
N|108|To amend title XIX of the Social Security Act to extend Medicare cost-sharing for the Medicare part B premium for qualifying individuals through September 2005.
N|108|High Risk Pool Flexibility Act of 2004
N|108|Requesting return of official papers on S. 1301.
N|108|Free Market Drug Act
N|108|Prevention of Terrorist Access to Destructive Weapons Act of 2004
N|108|Taxpayer Abuse Prevention Act
N|108|9/11 Commission Report Implementation Act of 2004
N|108|Supporting the observance of Breast Cancer Awareness Month, and for other purposes.
N|108|No Guns for Felons Act
N|108|Supporting the goals of Red Ribbon Week.
N|108|Small Business Growth Act
N|108|To express the sense of the House that the Federal Communications Commission should not enact rules authorizing Broadband Over Power Line Systems without a more comprehensive evaluation of the interference potential to Public Safety services and other licensed radio services.
N|108|Urging the President to withdraw the United States from the 1992 Agreement on Government Support for Civil Aircraft with the European Union and immediately file a consultation request, under the Understanding on Rules and Procedures Governing the Settlement of Disputes of the World Trade Organization, on the matter of injury to, and adverse effects on, the commercial aviation industry of the United States.
N|108|Recognizing Jerry J. Jasinowski on the occasion of his retirement from the presidency of the National Association of Manufacturers.
N|108|A bill to provide that no funds may be expended by the United States Trade Representative to negotiate data exclusivity provisions for certain pharmaceutical products.
N|108|Federal Employee Protection of Disclosures Act
N|108|Child Protection and Home Safety Act of 2004
N|108|Amending the Rules of the House of Representatives to prohibit any committee from sending more than 999 copies of any mass mailing to addresses within the same Congressional district, from sending any mass mailing to an address within a Congressional district if the mailing is postmarked fewer than 90 days immediately before the date of a House election in the district, and from sending any mass mailing as franked mail which does not meet the standards applicable to franked mail sent by elected officers of the House.
Y|108|Congratulating Wangari Maathai for winning the Nobel Peace Prize and commending her for her tireless work to promote sustainable development, democracy, peace, and women's rights in Africa.
N|108|Clean Trucks Act of 2004
N|108|Office of Intellectual Property and Competition Policy Act of 2004
N|108|For the relief of the Big Spring Independent School District.
N|108|Commending the people and the Government of the Republic of Guatemala for progress toward peace, democratization, and political and economic liberalization, and expressing the hope and support of the House of Representatives for the continuation of this progress.
N|108|Congratulating Jimmy Haywood and Kenny Roy for setting world records in civil aviation history and commending youth aviation programs that encourage young minorities to enter the field of civil aviation.
N|108|To provide additional security for nuclear facilities under certain circumstances.
N|108|Expressing the sense of the Congress to support an increase in funds allocated to the Republic of Haiti and to expedite the delivery of emergency aid to the island nation because of the terrible destruction brought on by Hurricane Jeanne.
N|108|To suspend temporarily the duty on Dichloroethyl Ether.
N|108|Majority Vote Act of 2004
N|108|Recognizing the continuing legacy of the Buffalo Soldiers and expressing the sense of the Congress regarding the establishment of a Buffalo Soldiers Heritage Month.
N|108|Guaranteeing Airport Physical Screening Standards Act of 2004
Y|108|To amend the Internal Revenue Code of 1986 to provide an increased exclusion of gain from the sale of a principal residence by certain widows and widowers.
N|108|To amend title I of the Employee Retirement Income Security Act of 1974 and the Internal Revenue Code of 1986 to provide a reasonable correction period for certain security and commodity transactions under the prohibited transaction rules.
N|108|Free and Fair Elections in Ethiopia Act
N|108|Waiving a requirement of clause 6(a) of rule XIII with respect to consideration of certain resolutions reported from the Committee on Rules.
N|108|Providing for consideration of motions to suspend the rules.
N|108|Electing a Member to a certain standing committee of the House of Representatives.
N|108|A bill to amend the Internal Revenue Code of 1986 to provide that combat pay be treated as earned income for purposes of the earned income credit.
N|108|North American Investment Fund Act
N|108|Act for Elder Justice
N|108|Intellectual Property Protection Act of 2004
N|108|Assistance for Orphans and Other Vulnerable Children in Developing Countries Act of 2004
N|108|Waiving points of order against the conference report to accompany the bill (H.R. 4520) to amend the Internal Revenue Code of 1986 to remove impediments in such Code and make our manufacturing, service, and high-technology businesses and workers more competitive and productive both at home and abroad.
N|108|A resolution expressing the sense of the Senate that the United States should prepare a comprehensive strategy for advancing and entering into international negotiations on a binding agreement that would swiftly reduce global mercury use and pollution to levels sufficient to protect public health and the environment.
N|108|Expressing the sense of Congress that a minute of silence should be observed annually at 11:00 a.m. on Veterans Day, November 11, in honor of the veterans of all United States wars and to memorialize those members of the Armed Forces who gave their lives in the defense of the United States.
N|108|Expressing the sense of the Congress that student travel is a vital component of the educational process.
N|108|Congratulating and commending the Veterans of Foreign Wars.
N|108|Servicemembers and Veterans Legal Protections Act of 2004
N|108|Homeless Veterans Assistance Act of 2004
N|108|Enterprise Rancheria Land Restoration Act of 2004
N|108|Services for Ending Long-Term Homelessness Act
N|108|Fair Access to Clinical Trials Act of 2004
N|108|Combating Methamphetamine Act of 2004
N|108|TAA Health Coverage Improvement Act of 2004
N|108|Auto Choice Reform Act of 2004
N|108|Mark O. Hatfield-Elizabeth Furse Scholarship and Excellence in Tribal Governance Act of 2004
N|108|Consumer Price Index for Elderly Consumers Act
N|108|A bill to amend title XVIII of the Social Security Act to extend the minimum medicare deadlines for filing claims to take into account delay in processing adjustments from secondary payor status to primary payor status.
N|108|Pancreatic Islet Cell Transplantation Act of 2004
N|108|A bill to clarify the status of certain employee benefit plans under the Internal Revenue Code of 1986 and the Employee Retirement Income Security Act of 1974.
N|108|Water Infrastructure Financing Act
N|108|Honoring the goals and ideals of National Nurse Practitioners Week.
N|108|To designate the facility of the United States Postal Service located at 1475 Western Avenue, Suite 45, in Albany, New York, as the "Lieutenant John F. Finn Post Office".
N|108|W. J. (Billy) Tauzin Satellite Television Act of 2004
N|108|Access to Rural Physicians Improvement Act of 2004
N|108|A bill to amend the Exchange Rates and International Economic Policy Coordination Act of 1988 to clarify the definition of manipulation with respect to currency, and for other purposes.
N|108|Northern Mariana Islands Delegate Act
N|108|To amend the Reclamation Wastewater and Groundwater Study and Facilities Act to authorize the Secretary of the Interior to participate in the El Paso, Texas, water reclamation, reuse, and desalinization project, and for other purposes.
N|108|Wichita Project Equus Beds Division Authorization Act of 2004
N|108|Lower Rio Grande Valley Water Resources Conservation and Improvement Act of 2004
N|108|To authorize additional appropriations for the Reclamation Safety of Dams Act of 1978.
N|108|Brownfields Revitalization Act of 2004
N|108|Clinical Research Act of 2004
N|108|Small Business Tax Equalization and Compliance Act of 2004
N|108|Pulmonary Hypertension Research Act of 2004
N|108|A bill to amend the Internal Revenue Code of 1986 to provide funding for Indian tribal prison facilities, and for other purposes.
N|108|A bill to amend the Internal Revenue Code of 1986 to restore the deduction for the travel expenses of a taxpayer's spouse who accompanies the taxpayer on business travel.
N|108|Enhanced Second Chance Act of 2004
N|108|NASA and JPL 50th Anniversary Commemorative Coin Act
N|108|Community-Based Health Care Retraining Act
N|108|Long-Term Care Act of 2004
N|108|Expressing the sense of the House of Representatives that the United States should declare its support for the independence of Kosova.
N|108|A bill to amend the National Aeronautics and Space Act of 1958 to establish a centennial challenge program and establish a National Aeronautics and Space Foundation.
N|108|A resolution expressing the sense of the Senate that a postage stamp should be issued honoring Oskar Schindler.
N|108|Domestic Trafficking Victims Protection Act of 2004
N|108|A bill to reauthorize programs under section 7(a) of the Small Business Act (15 U.S.C. 636(a)) through September 30, 2005.
N|108|Animal Fighting Prohibition Enforcement Act of 2004
N|108|Emergency Supplemental Appropriations for Hurricane Disasters Assistance Act, 2005
N|108|Waiving a requirement of clause 6(a) of rule XIII with respect to consideration of certain resolutions reported from the Committee on Rules.
N|108|Providing for consideration of the bill (H.R. 10) to provide for reform of the intelligence community, terrorism prevention and prosecution, border security, and international cooperation and coordination, and for other purposes.
N|108|Common Sense Automobile Efficiency Act of 2004
N|108|Fair Credit Card Interest Rate Act
N|108|National Park Anniversaries--Great American Spaces Commemorative Coin Act
N|108|To require that certain measures be taken with respect to countries of concern regarding terrorist financing.
N|108|To award posthumously a Congressional gold medal to Constantino Brumidi.
N|108|Comptroller of the Currency Accountability Act
N|108|Close the Bank Examiner Revolving Door Act
N|108|College Student Credit Card Protection Act
N|108|Pentagon 9/11 Memorial Commemorative Coin Act of 2004
N|108|Full-Service Community Schools Act of 2004
N|108|Medicare Competitive Acquisition Improvement Act of 2004
N|108|Safe Food Act of 2004
N|108|Up-Skilling Tax Credit Act of 2004
N|108|Honoring the members of the United States Armed Forces who served in the Vietnam War, and expressing the appreciation of the House of Representatives for the service and sacrifice of all veterans of the Vietnam era.
N|108|Education for Public Service Act of 2004
N|108|Mailing Support to Troops Act of 2004
N|108|To amend the Internal Revenue Code of 1986 to allow a deduction from gross income for uncompensated education costs incurred by veterans' survivors and dependents who are in receipt of educational assistance under chapter 35 of title 38, United States Code.
N|108|Urging a peaceful resolution of the conflict over Kashmir, and for other purposes.
N|108|To direct the Secretary of Defense to establish and award a decoration, to be known as the "Coalition of the Willing Medal", to members of the military services of nations participating with the United States in Operation Enduring Freedom and Operation Iraqi Freedom.
N|108|Expressing the sense of the House of Representatives regarding the creation of refugee populations in the Middle East, North Africa, and the Persian Gulf region as a result of human rights violations.
N|108|Urging the Senate to give its advice and consent to ratification of Convention No. 87 Concerning Freedom of Association and Protection of the Right to Organize as adopted by the International Labor Conference.
N|108|To amend the Internal Revenue Code of 1986 to encourage investment in facilities which use woody biomass to produce electricity.
N|108|Commending the first United States kindergarten, established in College Point, New York, and for other purposes.
N|108|Federal Flight Deck Officer Improvement Act of 2004
N|108|Fatal Grade Crossing Accident Investigations Act
N|108|Expressing the sense of Congress regarding the European Union's plans to lift the embargo on arms sales to the People's Republic of China.
N|108|To suspend temporarily the duty on Nylosan red F-GS SGR.
N|108|Mark O. Hatfield-Elizabeth Furse Scholarship and Excellence in Tribal Governance Act of 2004
N|108|To amend the Cuban Liberty and Democratic Solidarity (LIBERTAD) Act of 1996 to require that, in order to determine that a democratically elected government in Cuba exists, the government extradite to the United States convicted felon William Morales and all other individuals who are living in Cuba in order to escape prosecution or confinement for criminal offenses committed in the United States.
N|108|Expressing the sense of the Congress with respect to Inez Sitter.
N|108|Providing for consideration of motions to suspend the rules.
N|108|Calling on the United Nations Security Council to immediately consider and take appropriate action to respond to the growing threat that the ruling State Peace and Development Council in Burma poses to the Southeast Asia region and to the people of Burma.
N|108|Condemning the abduction of Dylan Benwell from the United States and calling for his return.
N|108|Celebrating the 50th anniversary of the opening of the Falcon International Dam, recognizing the dam's importance as a source of water and power and as a symbol of friendship and cooperation between the United States and the United Mexican States, and urging Mexico to honor all of its obligations under the 1944 Treaty Relating to the Utilization of Waters of the Colorado and Tijuana Rivers and of the Rio Grande.
N|108|To congratulate Mojave Aerospace Ventures for winning the privately funded $10,000,000 Ansari X Prize and commend the X Prize Foundation for spurring this achievement.
N|108|Recognizing and supporting all efforts to promote greater civic awareness among the people of the United States.
N|108|Relating to early organization of the House of Representatives for the One Hundred Ninth Congress.
N|108|Supporting the goals and ideals of "Lights On Afterschool, a national celebration of after-school programs.
N|108|Supporting efforts to promote greater public awareness of effective runaway youth prevention programs and the need for safe and productive alternatives, resources, and supports for youth in high-risk situations.
N|108|Better Future for American Families Act
N|108|To reauthorize the Tropical Forest Conservation Act of 1998 through fiscal year 2007, and for other purposes.
Y|108|Honoring former President James Earl (Jimmy) Carter on the occasion of his 80th birthday.
N|108|Zero Downpayment Act of 2004
N|108|Delaware Water Gap National Recreation Area Natural Gas Pipeline Enlargement Act
N|108|A resolution to authorize testimony and representation in United States v. Daniel Bayly, et. al.
N|108|Animal Fighting Prohibition Enforcement Act of 2004
N|108|Providing for consideration of the bill (H.R. 5212) making emergency supplemental appropriations for the fiscal year ending September 30, 2005, for additional disaster assistance relating to storm damage, and for other purposes.
N|108|Affordability in Medicare Premiums Act of 2004
N|108|Information Technology for Health Care Quality Act
N|108|Military Personnel Financial Services Protection Act
N|108|SAFE for America Act
N|108|Military Personnel Financial Services Protection Act
N|108|Pitkin County Land Exchange Act of 2004
N|108|A concurrent resolution recognizing the essential role of nuclear power in the national energy policy of the United States and supporting the increased use of nuclear power and the construction and development of new and improved nuclear power generating plants.
N|108|Nonprofit Athletic Organization Protection Act of 2004
N|108|Specialty Crops Competitiveness Act of 2004
N|108|Public Transportation Terrorism Prevention and Response Act of 2004
N|108|Congratulating Andrew Wojtanik for winning the 16th Annual National Geographic Bee, conducted by the National Geographic Society.
N|108|A bill to authorize the President to posthumously award a gold medal on behalf of Congress to Elizabeth Wanamaker Peratrovich and Roy Peratrovich in recognition of their outstanding and enduring contributions to civil rights and dignity of the Native peoples of Alaska and the Nation.
N|108|Recognizing the spirit of Jacob Mock Doub and his contribution to encouraging youth to be physically active and fit and expressing the sense of Congress that "National Take a Kid Mountain Biking Day" should be established in Jacob Mock Doub's honor.
N|108|Expressing the sense of the Congress that private health insurance companies should take a proactive role in promoting healthy lifestyles, and for other purposes.
N|108|Honoring the service of American Indians in the United States Armed Forces.
N|108|Recognizing community organization of public access defibrillation programs.
N|108|Patient Navigator Outreach and Chronic Disease Prevention Act of 2004
N|108|To amend the Department of Agriculture Organic Act of 1944 to ensure that the dependents of employees of the Forest Service stationed in Puerto Rico receive a high-quality elementary and secondary education.
N|108|Safe and Timely Interstate Placement of Foster Children Act of 2004
N|108|Pennsylvania National Forest Improvement Act of 2004
N|108|National All Schedules Prescription Electronic Reporting Act of 2004
N|108|SPY ACT
N|108|A bill for the relief of Rona Ramon, Asaf Ramon, Tal Ramon, Yiftach Ramon, and Noah Ramon.
N|108|Honoring the young victims of the Sixteenth Street Baptist Church bombing, recognizing the historical significance of the tragic event, and commending the efforts of law enforcement personnel to bring the perpetrators of this crime to justice on the occasion of its 40th anniversary.
N|108|Biological, Chemical, and Radiological Weapons Countermeasures Research Act
N|108|To create additional Federal court judgeships.
N|108|A resolution encouraging the protection of the rights of refugees.
N|108|Congratulating the United States Geological Survey on its 125th Anniversary.
N|108|Manhattan Project Sites Study Act of 2004
N|108|Hibben Center Act
N|108|Native Hawaiian Government Reorganization Act of 2004
N|108|To provide for the conveyance of certain public land in Clark County, Nevada, for use as a heliport.
N|108|Potash Royalty Reduction Act of 2004
N|108|Cumberland Island Wilderness Boundary Adjustment Act of 2004
N|108|Tapoco Project Licensing Act of 2004
N|108|A resolution designating the first day of April 2005 as "National Asbestos Awareness Day".
N|108|Waiving points of order against the conference report to accompany the bill (H.R. 4850) making appropriations for the government of the District of Columbia and other activities chargeable in whole or in part against the revenues of said District for the fiscal year ending September 30, 2005, and for other purposes.
N|108|Providing for consideration of the bill (H.R. 5107) to protect crime victims' rights, to eliminate the substantial backlog of DNA samples collected from crime scenes and convicted offenders, to improve and expand the DNA testing capacity of Federal, State, and local crime laboratories, to increase research and development of new DNA testing technologies, to develop new training programs regarding the collection and use of DNA evidence, to provide post-conviction testing of DNA evidence to exonerate the innocent, to improve the performance of counsel in State capital cases, and for other purposes.
N|108|Delaware National Coastal Special Resources Study Act
N|108|Providing for consideration of the bill (H.R. 2802) to reauthorize the Small Business Act and the Small Business Investment Act of 1958, and for other purposes.
N|108|Honoring Bernard Hopkins, the undisputed World Middleweight Champion.
N|108|To reduce temporarily the duty on 1-propene-2-methyl homopolymer.
N|108|Emergency Supplemental Appropriations for Hurricane Disasters Assistance Act, 2005
Y|108|Expressing the sense of the House of Representatives that Pasqualine J. Gibbons of Denver, Colorado, an African American woman who valiantly served her country in the Army Air Corps during World War II, was unfairly passed over for promotion and should have held the grade of technical sergeant, rather than private first class, upon her discharge from the service on January 2, 1946.
N|108|Eastern Santa Clara River Basin Protection Act
N|108|To amend title 49, United States Code, to ensure that the National Driver Registry includes certain information.
N|108|To respond to recent natural disasters adversely affecting agricultural producers.
N|108|Restoring the Everglades, an American Legacy Act of 2004
N|108|Expressing the sense of the Congress on the importance of revitalizing family farming.
N|108|To amend the Richard B. Russell National School Lunch Act to provide for automatic eligibility for free school lunch and breakfast programs to children of parents who are enlisted members of the Armed Forces on active duty.
N|108|A joint resolution commemorating the opening of the National Museum of the American Indian.
N|108|Timucuan Ecological and Historic Preserve Boundary Revision Act of 2004
N|108|To amend the Stevenson-Wydler Technology Innovation Act of 1980 to permit Malcolm Baldrige National Quality Awards to be made to nonprofit organizations.
N|108|To extend the term of the Forest Counties Payments Committee.
N|108|To amend the Reclamation Project Authorization Act of 1972 to clarify the acreage for which the North Loup division is authorized to provide irrigation water under the Missouri River Basin project.
N|108|Southwest Forest Health and Wildfire Prevention Act of 2004
N|108|Mount Rainier National Park Boundary Adjustment Act of 2004
N|108|Williamson County Water Recycling Act of 2004
N|108|Railroad Right-of-Way Conveyance Validation Act of 2003
N|108|Carpinteria and Montecito Water Distribution Systems Conveyance Act of 2004
N|108|Martin Luther King, Junior, National Historic Site Land Exchange Act
N|108|Johnstown Flood National Memorial Boundary Adjustment Act of 2004
N|108|A resolution designating October 2004 as "Protecting Older Americans From Fraud Month".
N|108|A resolution recommending expenditures for an appropriate visitors center at Little Rock Central High School National Historic Site to commemorate the desegregation of Little Rock Central High School.
N|108|Veterans' Compensation Cost-of-Living Adjustment Act of 2004
N|108|Recognizing the establishment of Hunters for the Hungry programs across the United States and the contributions of those programs to efforts to decrease hunger and help feed those in need.
N|108|Expressing the support of the House of Representatives for the efforts of organizations such as Second Harvest to provide emergency food assistance to hungry people in the United States, and encouraging all Americans to provide volunteer services and other support for local antihunger advocacy efforts and hunger relief charities, including food banks, food rescue organizations, food pantries, soup kitchens, and emergency shelters.
N|108|Program Assessment and Results Act
